UUID,iqrAccX,iqrAccY,iqrAccZ,iqrAccXYZ,meanAccX,meanAccY,meanAccZ,meanAccXYZ, covarianceAccXY, covarianceAccXZ, covarianceAccYZ,pressureDerivative, pressureIQR, iqrGyroX, iqrGyroY, iqrGyroZ, iqrGyroMagnitude, meanGyroX, meanGyroY, meanGyroZ, meanGyroMagnitude, covarianceGyroXY, covarianceGyroXZ, covarianceGyroYZ, class, timestamp 
80ec3f676e17debf,-0.8996047841132039,-1.0697255748838006,-0.6865866618935871,-0.7929135166801102,-1.232510563659751,-1.3997073013895298,1.805263111968735,-0.970788790229708,-0.2609823270655265,-0.7035665599769043,0.06433730376077337,-3.3330358937790683,3.0383522727272725,-1.04457161119041,-1.0982018327877927,-0.9466197484360842,-1.2730834987348407,-1.0061099876109687,-1.048104610315391,-0.8808883421627057,-1.0712523417319135,-0.45867608708327423,-0.6673860085720243,-0.517685859614434,undefined,1498223254399
80ec3f676e17debf,-0.7471432005405371,-1.0265799725218787,-0.8744812906280811,-0.932474104453674,-1.6534737515301334,-1.4361350142173552,1.8187907693714742,-1.0026949569366443,-0.24351369752212518,-0.7095743506414369,0.07462292079749562,-2.728716501020943,6.99856561942959,-1.0817353092399489,-1.1187249650361508,-0.9767458785398778,-1.1439016005004836,-1.1141628170878963,-1.1928749159685634,-1.1009522757582437,-1.2119968956304545,-0.44897629961618407,-0.6486829174586576,-0.48917215650011364,undefined,1498223255887
80ec3f676e17debf,-1.2530385202123182,-1.0923257692234434,-0.9370060960208213,-1.0063337477590444,-1.8131419026567082,-1.431384110828469,1.8286446064247137,-0.9463183112407514,-0.26332599199533974,-0.6998416387677053,0.08221495043729023,-1.6513707480501514,5.764806846033868,-1.1390736170350086,-1.2370348390132895,-1.1945809850946907,-1.3042131232913414,-1.159372850171674,-1.2305577201714009,-1.2115220224461445,-1.2649390239841654,-0.4590599927938329,-0.6550179484117524,-0.5034587617797008,undefined,1498223257375
80ec3f676e17debf,-1.3278833159531407,-1.0923257692234434,-0.9791150637185821,-1.0392950548687712,-1.8594819153301114,-1.4401543024390553,1.8356042743654901,-0.9256388693764083,-0.26713785381646826,-0.6947695587346728,0.08469587232137475,-1.1147359571139341,1.6805648395721926,-1.1528772769812168,-1.2901535628812586,-1.2362940805697071,-1.337716853036302,-1.181331267629282,-1.2572414073847704,-1.2604348357544861,-1.294108319794568,-0.4626955827321251,-0.6589920889211764,-0.5088004630431355,undefined,1498223258920
80ec3f676e17debf,-1.380551855790749,-1.1134583091558135,-1.0142057854210662,-1.0686212897655178,-1.9731578881249654,-1.4468802191645216,1.8473380399469694,-0.8777611155281462,-0.28319023770060026,-0.6759807124418235,0.09124257420815969,-0.17263261504325467,-0.7956564728163993,-1.1624336608043033,-1.3046404879908315,-1.2501984510276811,-1.3587062308864983,-1.1940179631921406,-1.2703692826276038,-1.2792929201301049,-1.3084352043045249,-0.4652170278114141,-0.6616602178209644,-0.5126543327419093,undefined,1498223260398
80ec3f676e17debf,-1.3722357846278068,-1.1122842791595706,-1.0173957124102289,-1.0722392740056674,-1.9533476352667805,-1.4513779808231255,1.8478850327822771,-0.8827165251521746,-0.2820977204587349,-0.6746596535733513,0.09111484931312079,-0.11888720363116903,-0.6389886920677362,-1.1741136859266443,-1.3082622137465496,-1.245563663819265,-1.361386462301047,-1.2070879593178898,-1.2792183025325963,-1.2813679897937205,-1.3179725876201343,-0.472722360806208,-0.6683415943510331,-0.5197571879401646,undefined,1498223261890
80ec3f676e17debf,-1.3264972940285724,-1.1193284591370272,-1.0193098719132858,-1.0728852987945474,-1.910898563659039,-1.4577950314112809,1.8482216560057978,-0.8927984679478242,-0.2831373137974797,-0.6749774331444,0.09172540847500003,-0.03137796468998687,-0.5084322081105169,-1.1911028114641393,-1.3275781108250495,-1.2710550049480973,-1.3850796762854287,-1.2218611583360994,-1.3000820089078375,-1.328079136342053,-1.3411596958265675,-0.47621316056564167,-0.673483566548726,-0.5286490551007602,undefined,1498223263672
80ec3f676e17debf,-1.327883324579493,-1.111697264161449,-1.0142057854210662,-1.0645034398996216,-1.8937008782907403,-1.459828458518304,1.849576003218293,-0.8874691879449386,-0.28388002349660885,-0.6739168566779132,0.09175613809512731,0.0273521570564507,-0.2908380681818182,-1.1889791693554617,-1.3336143326883023,-1.2687376104606167,-1.3859313400969624,-1.2197403253939652,-1.3036288389153412,-1.328661921953817,-1.341690672130216,-0.47619435465035875,-0.673491310759122,-0.5286963928473191,undefined,1498223264965
80ec3f676e17debf,-1.32233927138663,-1.1181544291407846,-1.0027213366766228,-1.0630443441342028,-1.893094021843387,-1.466126718949668,1.8555509145926525,-0.8617650876779513,-0.282949537809498,-0.6745721921457273,0.09199315187356583,0.03097917597235817,-0.34741254456327986,-1.1921646300902082,-1.333614330847744,-1.2733724029686682,-1.3936205095593055,-1.2244395682290956,-1.3070472769655153,-1.332971003163691,-1.3456076897437834,-0.47647591376633763,-0.6733824415123417,-0.5284219637593757,undefined,1498223266386
80ec3f676e17debf,-1.332041355847788,-1.139286852161185,-1.0161194366502244,-1.067902285703418,-1.9535224917403364,-1.4817396123358546,1.8696335336146737,-0.8044776898297084,-0.2819413468791314,-0.6786747435899285,0.09247816447901801,0.14725814424229036,-0.4126907865418895,-1.1900409912192238,-1.3384433046572293,-1.2617854252316296,-1.390845420976222,-1.2234154674294317,-1.309229941611868,-1.326648662518158,-1.3450353057099447,-0.4764558161124973,-0.673131104134639,-0.5280628968706906,undefined,1498223267902
80ec3f676e17debf,-1.3847099043117486,-1.1375258071668208,-1.0161194366502244,-1.0698441611174114,-2.0094561120514807,-1.4861325648261718,1.8777228069738048,-0.76216877946384,-0.2831078769078436,-0.6768096711981103,0.09191311658254395,0.030767289208992476,-0.7608414104278075,-1.1889791697601733,-1.3384433046572293,-1.2641028214856553,-1.3944686772234816,-1.2169440218296639,-1.3099441221907846,-1.324953285730413,-1.341814966976016,-0.4764513783829726,-0.670625456126008,-0.5275431895281278,undefined,1498223269388
80ec3f676e17debf,-1.3791658511188856,-1.1433960740600042,-1.023775566388554,-1.079866170714369,-1.9948195652677663,-1.4946273091570283,1.888996789611521,-0.7054760444774957,-0.28392448288131616,-0.6757244852725738,0.09197690232583085,0.040833810153504166,-0.7738970588235294,-1.1964119110698703,-1.3432722803072732,-1.2687376139937068,-1.3955869622261257,-1.2217158958449617,-1.315505102321793,-1.3267193026185746,-1.3468696619800358,-0.47637080254657316,-0.6703741298076243,-0.5271957227137336,undefined,1498223270884
80ec3f676e17debf,-1.406886142962258,-1.1357648790844261,-1.0327074636129887,-1.0841859285463114,-1.9612470502022228,-1.5033433189370193,1.899605424116521,-0.6530011294814829,-0.283904348913132,-0.6760910702318397,0.09225515515740106,-0.08815402185956116,-0.7826008244206774,-1.19959737261404,-1.3481012541167585,-1.266420217739681,-1.4041924918061335,-1.2276353439047683,-1.319276618410226,-1.3247060433663396,-1.3512681971370486,-0.47644023779011846,-0.670272118751723,-0.5270241304081523,undefined,1498223272384
80ec3f676e17debf,-1.404114107739474,-1.1433960740600042,-1.0282417691377206,-1.0796861439482643,-1.9403156564148574,-1.5090709139954708,1.9051543083772926,-0.62739627460844,-0.2830738703316622,-0.6771941353231455,0.09257553155847528,0.02306296850895115,-0.9175091911764707,-1.1985355515597014,-1.3456867662917364,-1.2641028214856553,-1.3992362297187382,-1.224671988333124,-1.319308716386942,-1.3133328946122331,-1.3479688083428276,-0.4763698996156183,-0.6704108072533919,-0.5269730807342746,undefined,1498223273899
80ec3f676e17debf,-1.3944120146519638,-1.0993698322889307,-1.0199472473824398,-1.073628264224544,-1.9225316857652228,-1.4976879139876376,1.9020669138733628,-0.6241617562925729,-0.28263135923025645,-0.6775912614478009,0.09183202859755472,-0.005920771607950829,-0.8348234180035651,-1.202782835777057,-1.3481012513559207,-1.2756897974561487,-1.4147338999787578,-1.2309618556540807,-1.321587675128603,-1.3434964636652795,-1.3569009966319294,-0.47618140871304593,-0.6732937821273202,-0.529098309363779,undefined,1498223275375
80ec3f676e17debf,-1.3957980279501796,-1.1034789372757805,-1.0167573203932772,-1.0664508779001216,-1.9150436979851302,-1.4884268595134151,1.8961025070475523,-0.6448677287305576,-0.28328572095630045,-0.6771141826205898,0.09199010982603127,0.01349471983116387,-0.847879066399287,-1.202782835777057,-1.345686764451178,-1.264102817952565,-1.41463744600063,-1.2294438622051604,-1.3209617639307931,-1.3416951263768895,-1.3554180026585627,-0.4761096957472847,-0.6731233495537268,-0.529191236866248,undefined,1498223276927
80ec3f676e17debf,-1.3680777447331596,-1.1023049072795377,-0.9969788581674517,-1.052788452256437,-1.7777707871382051,-1.4523189941756736,1.8798555676313649,-0.6547989345179626,-0.24856270775484268,-0.7066899734131386,0.08916094484351704,-0.05322641541224119,-0.8696384803921569,-1.1857937070018683,-1.3311998411821635,-1.2548332435357328,-1.3975330534656223,-1.1970866341294997,-1.2985332797911806,-1.304644091982687,-1.3254789546155834,-0.46833073975956013,-0.664624761070972,-0.5220915722756929,undefined,1498223282721
80ec3f676e17debf,-1.361147660989376,-1.1017178922814161,-0.9969788581674517,-1.0443658703862841,-1.7685445166486347,-1.458710426404642,1.8541886617331793,-0.8319524997059009,-0.2520511979080844,-0.7201895309227885,0.10963982069762845,-0.05827555553575291,-0.8696384803921569,-1.183670068130884,-1.3263708710537951,-1.2501984510276811,-1.3910426995560135,-1.1938182272086044,-1.2957407530022813,-1.2913459846058613,-1.3208043274743921,-0.4674436909099517,-0.6622898767372475,-0.5182891421410297,undefined,1498223282879
80ec3f676e17debf,-1.0576104726368483,-1.0383202724843064,-0.8802227525894546,-0.9544395604304595,-1.656821275300759,-1.5033270058121935,1.9203887635085193,-0.43851456845602976,-0.2947557386581889,-0.7379838309563125,0.09521810027020382,-0.15177598287314858,-0.4649133801247772,-1.1040335416679856,-1.2817028577943799,-1.1528678754873134,-1.177559642199563,-1.1492589465346061,-1.2499930648719173,-1.1163160492692048,-1.252487097910357,-0.4537552849845607,-0.6310738443865631,-0.4797922193896758,undefined,1498223284382
80ec3f676e17debf,-0.930097128432065,-0.6321055430483983,-0.3366375411680713,-0.3520294871100118,-1.5625014335100156,-1.556144835546767,1.8840501057271626,-0.7336197442032106,-0.3096126872104156,-0.72663234984117,0.09204409183643536,-0.3720202805829944,-0.4475058489304813,-1.0647461853213005,-1.1802943949112779,-0.9188109986874105,-1.0573122211089312,-1.1171196123302625,-1.2093409357991909,-1.0501787163183658,-1.2104714144054753,-0.44888901814279863,-0.6222094154666816,-0.4758121397296048,undefined,1498223285914
80ec3f676e17debf,-0.8136718561075981,-0.3614912781785306,0.8239052686166237,0.8326376116428209,-1.3995039933316105,-1.6179185857136265,1.9145742727642465,-0.5970294069023101,-0.3140325137297812,-0.669460769900825,0.06815377103961838,-0.3770827768457473,0.905929701426025,-1.027582484034068,-1.1102742728331814,-0.7009759150976839,-1.0101188874899467,-1.0871955316917565,-1.1702535842905013,-0.962213414813004,-1.1651697268715409,-0.4545551262725143,-0.6189479403288647,-0.4826437857622291,undefined,1498223287379
80ec3f676e17debf,-0.8025837324691671,-0.4636320047636214,1.070815833883169,1.0648732768100693,-1.4799484295713952,-1.6773328200071218,1.942037338094428,-0.5287622129335307,-0.39018759570029193,-0.6050048426321283,0.05231688873856675,-0.41410163154720653,0.47074142156862747,-0.9659969049724272,-1.0583628071420512,-0.5039973818952832,-1.0942245789994491,-1.0563127186361025,-1.1175967996720109,-0.7935941217324624,-1.0972077367228077,-0.46770541023858797,-0.6254202671587509,-0.49146733776929336,undefined,1498223288886
80ec3f676e17debf,-0.6806144759626567,-0.4683281247485925,0.43471841944793277,0.47692590194126905,-1.2594950844597719,-1.7317158977476967,1.974762644869214,-0.35325018297287225,-0.45565464283512325,-0.5151682918623143,0.04529562755825611,-0.083618827931215,0.10083138368983958,-0.9224622611706927,-1.0704352195790634,-0.30006661753372293,-1.0823774911736903,-0.9973942377343712,-1.0012174417800308,0.0058287528541260125,-0.8557576837154671,-0.4482280384142403,-0.5570487128521792,-0.07871429733404921,undefined,1498223290401
80ec3f676e17debf,-0.6182438085321283,-0.6778927129018665,-0.2332795355636758,-0.1950777049281841,-1.217426583336374,-1.7551457146962859,1.981497574158416,-0.35782405121254396,-0.44913271827714335,-0.5669040394055447,0.07341801047597986,0.06018545254611591,0.2923142268270945,-0.919276798007676,-1.0800931745602678,-0.29311447116872796,-1.058120738652282,-0.99772107853754,-0.9912670585272102,0.13999305604434706,-0.8258616945884625,-0.44656122788206504,-0.5496741375431896,-0.11588275317296258,undefined,1498223291892
80ec3f676e17debf,-0.586365502673166,-0.8481272377250229,-0.7111500146031563,-0.7772067369613306,-1.3623931959921842,-1.8148021891689659,1.9735608210200015,-0.5211755604851478,-0.3455495316086561,-0.6360239667006344,0.09040487162084458,-0.04257458181893218,0.40111129679144386,-0.9914805908503997,-1.0656062568129285,-0.29543181089331066,-1.0205118040855115,-1.0369419614782427,-1.03205560410172,0.011215103757719721,-0.8824457455407959,-0.43477313989007876,-0.5102401451498502,-0.04356186027468203,undefined,1498223293384
80ec3f676e17debf,-0.8607963600050482,-1.0124916125669654,-0.872567131125024,-0.9326392634727065,-1.670449821932223,-1.8369299599156412,1.9895132224482612,-0.5136927837245896,-0.2595339250679847,-0.7001219939448892,0.08913471284126405,0.01781921971355647,0.3619443516042781,-1.0318297520629556,-1.0680207602826974,-0.3556841276303409,-0.9505446589962318,-1.0654497323660164,-1.0765113475079817,-0.0540038997228128,-0.9233249744735013,-0.42264619494192973,-0.4898202154112018,0.024933713371825896,undefined,1498223294890
80ec3f676e17debf,-1.2779867768329065,-1.026579914065894,-0.9631649204988707,-1.0186712305190768,-1.9367979475375734,-1.8582727788729536,1.9938629309949145,-0.5372329861532555,-0.2944643251948238,-0.6651373154620668,0.08770902970712992,-0.27533238656002335,-0.6520443404634582,-1.0934153408376772,-1.1476988226175309,-0.45996684600261356,-1.0162372897625347,-1.1033777779869418,-1.136855605388571,-0.19867600430243085,-0.9930422594671842,-0.4060161514201936,-0.4537629830392642,0.10345777471099268,undefined,1498223296389
80ec3f676e17debf,-1.3084790995858866,-0.903893691774547,-0.9389202555238784,-0.9954932816744878,-1.9516402101105386,-1.8913759259902334,1.9897499183777727,-0.5908853600955374,-0.2870424744185808,-0.6663745717705873,0.09099761066073415,-0.09899731301396046,-0.7260263480392157,-1.1135899279193424,-1.2454855487015644,-0.9350327671659554,-1.1969054310707838,-1.1392140429705926,-1.2382050703143876,-0.9498159765305192,-1.2094352409313431,-0.4626110709400998,-0.6553379333859428,-0.500197615273905,undefined,1498223297882
80ec3f676e17debf,-1.214230109043691,-0.878652017627335,-0.9108477798166708,-0.9763685144923652,-1.8875808901452662,-1.896633020403098,1.9925822161843585,-0.5693979036371491,-0.27894489061905686,-0.6700304892934569,0.08784413024822647,0.015487066885744081,-0.7129706996434938,-1.1029717206136467,-1.2623869551942046,-1.07175906135931,-1.271516965955755,-1.1427947643083027,-1.2537405070991292,-1.0681391088349892,-1.2391731744227297,-0.46689157265361236,-0.6636322765371555,-0.5188166538726746,undefined,1498223299404
80ec3f676e17debf,-1.0409782785528496,-0.8504752977175084,-0.782607733768129,-0.8406523174690271,-1.7006486339646065,-1.9126768207337002,2.0147935519511386,-0.3929332964860596,-0.2433192723612283,-0.6879773805866921,0.05494572065421604,0.07458855581009258,-0.5998217468805704,-1.0626225432126226,-1.2334131178589678,-1.0230937824218516,-1.2033013936360482,-1.102862095222828,-1.215479679501146,-0.922142492332201,-1.1806237824019348,-0.44494255632819396,-0.6151697694704833,-0.4603485189699826,undefined,1498223300992
80ec3f676e17debf,-0.9522733498298696,-0.7870775902364215,-0.8138696281906003,-0.8599328121478917,-1.6466178671354568,-1.9100028545664376,2.010338661741157,-0.4145182319490058,-0.25868030734502456,-0.6991916567497749,0.04915199312855385,0.16175028625521182,-0.2734305369875223,-1.0435097868983774,-1.160978510716687,-0.8191630180602913,-1.110575225921758,-1.0907036219281974,-1.1848180560739512,-0.7928700559299621,-1.1366202223032191,-0.44705494773176213,-0.6197342490435784,-0.4246461509090576,undefined,1498223302408
80ec3f676e17debf,-0.9522733757089269,-0.7641839760816951,-0.80366196348006,-0.8271326849388547,-1.5781974108436703,-1.8820147163203602,2.0094760841100374,-0.38718601278425785,-0.287008709688735,-0.6838017547779943,0.04094228042458393,0.07960793837188865,-0.45185773172905525,-1.0222733852377606,-1.1223467128785702,-0.6662149712872977,-1.0498718524888115,-1.069684134076772,-1.1601266620934856,-0.7382648134088894,-1.1084097579805152,-0.44668628981061254,-0.625438294339599,-0.43433517271723776,undefined,1498223303929
80ec3f676e17debf,-1.0077139593956717,-0.8017529651894563,-0.7902633552325595,-0.8288087198516992,-1.487312989803239,-1.8607417748195536,1.997423688027257,-0.4422106229173921,-0.2792226363427179,-0.6865824226110644,0.03857242864241319,0.32903224235302436,-0.36917195855614976,-1.0297061293804395,-1.1320046623380995,-0.782084727459142,-1.114084470325918,-1.0642803680357056,-1.1537552072645483,-0.7706005826006027,-1.1106279780107244,-0.45043177773382576,-0.6286587310530581,-0.4398409732673829,undefined,1498223305388
80ec3f676e17debf,-1.0770146933172786,-0.9708134892443622,-0.8846889553386214,-0.9219713406693101,-1.5570602996946445,-1.8649693431722874,1.966673373605126,-0.6920924492810012,-0.3000850095980777,-0.6522758687683817,0.07902780101114922,0.15630005794517668,0.6143535539215687,-1.056251636312751,-1.1501132966383643,-0.7890369162212193,-1.1590417176156915,-1.0858010119133124,-1.1541243341952037,-0.7834395253987746,-1.1232730116353706,-0.4510167979291504,-0.6216083438688619,-0.436047817976408,undefined,1498223306890
80ec3f676e17debf,-1.1061210070852192,-1.0389072874824279,-0.9357303285347158,-0.9754091929961302,-1.5439254644824956,-1.8088812622046413,1.949997775700603,-0.7550291468244101,-0.2860913475511367,-0.6784204366213646,0.0896556650287575,0.2813149366080291,-0.016669451871657744,-1.063684369123502,-1.1633929847375206,-0.8052586899993995,-1.1449736511450106,-1.097610855168171,-1.157406355736713,-0.7923932310948205,-1.1322094761097177,-0.4481094463830061,-0.6170705231032543,-0.4314232902316408,undefined,1498223308381
80ec3f676e17debf,-1.1823517384870856,-0.9913590141786107,-0.9695447744771958,-1.0125991488473154,-1.5347609102917072,-1.833002862354228,1.9561594078347302,-0.7396712637323258,-0.29044966423561003,-0.674120156839602,0.08919627177958059,-0.17468994190508938,-0.47361714572192515,-1.0923535197833383,-1.2032320287888465,-0.9860154600228906,-1.2364225166968272,-1.14426917926533,-1.2069656826089608,-0.9971452302704791,-1.2091399939269596,-0.4671298940828279,-0.6608811664704549,-0.5044794445956048,undefined,1498223309888
80ec3f676e17debf,-1.1116650257726723,-0.9661173108034063,-0.9542325150005371,-1.0126034392481962,-1.5652888591939058,-1.8365642700619873,1.9434101038826257,-0.8281825413238489,-0.28232625750677526,-0.6807713393378096,0.08904241264420076,-0.0758494185309615,0.42287071078431376,-1.1188990267156498,-1.2346203548693844,-0.9118588046256979,-1.2436285736197008,-1.1639014097885367,-1.2271392816578595,-0.8517137400535493,-1.1891888645671314,-0.4736742270315319,-0.6509427213978519,-0.49960357314438075,undefined,1498223311392
80ec3f676e17debf,-1.0548384460404168,-0.9620082058165567,-0.8993633310722273,-0.9646174221827055,-1.6101859267168082,-1.83573739071182,1.9257272865376784,-0.9432207187083523,-0.29303765954842675,-0.6783561997768018,0.08437306464762219,-0.08187324069909675,0.26620293003565065,-1.0891680598580151,-1.2165117040040936,-0.4854581694659949,-1.069309008193403,-1.1390615175260848,-1.2087069999628772,-0.4599935343397104,-1.0841693637000223,-0.4692678999080758,-0.5983925163071581,-0.4435364523992832,undefined,1498223312885
80ec3f676e17debf,-1.0298901549144188,-0.9162210359630885,-0.8738428986111295,-0.9521838477370846,-1.662262410368456,-1.8496149986250836,1.9242309247005376,-0.9660680760892586,-0.2790430061067658,-0.6910488087739639,0.07982665716391135,0.13556836387446253,0.26620293003565065,-1.0806734898044568,-1.215304455950326,-0.3510493209899287,-1.0308642433037651,-1.122574220536359,-1.203579342891057,-0.3684432180512894,-1.0540493710306305,-0.4712909421081381,-0.5956819765091173,-0.45049529065177885,undefined,1498223314383
80ec3f676e17debf,-1.0409782785528496,-0.8369739235327242,-0.8732050148680768,-0.9576087296762168,-1.6267458991047834,-1.8672496687584383,1.9340637750401755,-0.9129987279272075,-0.29262183594521096,-0.681796704086798,0.07630138562574754,0.4467427434192963,1.5108414104278076,-1.0753643893893026,-1.2225479258673464,-0.3556840993656194,-1.0328162043960318,-1.1301859770341744,-1.2157525130988318,-0.36141447128086424,-1.0598033854306805,-0.47047879976233503,-0.5911376991041087,-0.4407911754100397,undefined,1498223315978
80ec3f676e17debf,-1.1975979537782784,-0.9790316699900693,-0.95231835549748,-0.9955593808655127,-1.545910605837396,-1.9356454486279298,1.9837855136470055,-0.6438751400832541,-0.29284633641175145,-0.6772444628675807,0.09084314969439025,0.3297930083196208,1.1888020833333335,-1.0827971367696752,-1.1935740756482003,0.22598197882110316,-0.8330267080346956,-1.1301859771622098,-1.1953622524431113,-0.09656492043819685,-0.9904100204587574,-0.4691174524835687,-0.5749429435406658,-0.37994872798598966,undefined,1498223317394
80ec3f676e17debf,-1.1768077197996323,-1.0447774082356494,-0.9905990041891267,-1.03823840291516,-1.5737128446382997,-1.9586140760220179,1.9816343333662212,-0.6863921808322921,-0.2928466593298346,-0.6700180647426598,0.0900844013893825,0.3417919636428987,0.4141669451871658,-1.084920778878353,-1.2334131104967339,0.32562994708240656,-0.768525773362963,-1.1310866047903894,-1.211491502426008,-0.16927183605198778,-1.0119078148034244,-0.46744685549684817,-0.5685050985105046,-0.35971677754621884,undefined,1498223318936
80ec3f676e17debf,-1.162947552312065,-1.0072084191278883,-1.0020829446596713,-1.0542433528498047,-1.6013402264875232,-1.9323006597248247,1.9811557101833595,-0.6713223700970439,-0.3017001555255322,-0.6692318328445719,0.09034066871071056,0.5055248954261549,0.31407364081996436,-1.1358881538719918,-1.2394493360411036,-0.2120056093440071,-0.9344297570115793,-1.1526580902440637,-1.2231591290920019,-0.3988716908725586,-1.0767718813469522,-0.46481990325478884,-0.5598560703801206,-0.3598966934289577,undefined,1498223320435
80ec3f676e17debf,-1.345901497456298,-1.1293076556491062,-1.0078254231688424,-1.0668987705893418,-1.7775547876464353,-1.9042379852004112,1.9789703304110478,-0.6780739508020264,-0.2889130249593314,-0.6742147851371179,0.09104867778012343,0.6564800129883891,1.7153799019607845,-1.1677427644571512,-1.2925680479454429,-0.9628415186811743,-1.2905799602781372,-1.186874678788607,-1.2557867555900772,-0.8647646063401727,-1.2076173678198012,-0.4700155703023749,-0.6218359105822209,-0.41571673031771744,undefined,1498223321892
80ec3f676e17debf,-1.3486735240527294,-1.0347981532675858,-1.0033592204196755,-1.0526227786161317,-1.849143238542048,-1.9179944720962847,1.980769111790094,-0.6800983503400573,-0.28040306508311946,-0.6797415351265883,0.09129728734324513,0.5505433264123044,2.5770526960784315,-1.1698664041375588,-1.2853245853906563,-0.5735191741226205,-1.1217220576615212,-1.1952635895617918,-1.2447530648238614,-0.7318011940719846,-1.1792757100932811,-0.46994560036158933,-0.6192554238994139,-0.39364606805806585,undefined,1498223323400
80ec3f676e17debf,-1.31263714379371,-0.9467458743213852,-0.9676306149741387,-1.0190567793287526,-1.9230254001093001,-1.967069213756761,1.9956932637303941,-0.6168314727083927,-0.2769761190686917,-0.681827976511694,0.08724047940315374,0.5327357233188035,1.2323209113190732,-1.1656191223484733,-1.2853245853906563,-0.6963411190565422,-1.175293269146187,-1.1973698961590975,-1.2536923605396928,-0.8764909563182786,-1.2184141461135798,-0.4737453520301109,-0.6576485257135779,-0.45835262178606595,undefined,1498223324884
80ec3f676e17debf,-1.255810555435102,-0.9526159950746068,-0.9453001095022034,-0.9876958137733008,-1.8703112015888366,-1.9696965958808177,2.011593079564599,-0.5067082001946085,-0.26347873772202696,-0.6745443594450575,0.0876217024215045,0.6009957711976814,1.3280623328877006,-1.1465063530834534,-1.268423175216899,-0.6384062692353415,-1.1401069215827244,-1.188734038786873,-1.2453308291846736,-0.8793872227289439,-1.214021776371137,-0.471975407148367,-0.6511483937923489,-0.45882787826684257,undefined,1498223326402
80ec3f676e17debf,-1.257196551480613,-0.8187764001349764,-0.9153134742919388,-0.9829854009547421,-1.8481455243589076,-1.9403225601401963,2.0072328643743518,-0.5042449752681762,-0.2585972113168684,-0.6761539930169993,0.08204971431722635,0.3883555666101995,2.3986255013368982,-1.1433208915392834,-1.2732521527075014,-0.6453584544643286,-1.13966382243955,-1.1894821407878349,-1.244897506013849,-0.8758198685237849,-1.2134096835162447,-0.47194564251145477,-0.6508929488268722,-0.45936836052316243,undefined,1498223327883
80ec3f676e17debf,-1.275214750236475,-0.7553787803378667,-0.8814990283494589,-0.9724645356409132,-1.8541729438317127,-1.866036134450472,1.99425740046694,-0.521748058193903,-0.27124815002958325,-0.6726623609574248,0.07086916964963444,0.18393131375081312,0.6970393270944742,-1.1327026939466687,-1.2744593970801519,-0.6337714802603802,-1.1371349914037885,-1.1799238666608685,-1.246743141463109,-0.892667669928373,-1.2120639813456406,-0.47237737043280825,-0.6552868560052311,-0.45923634036358074,undefined,1498223329399
80ec3f676e17debf,-1.1740357018295533,-1.0629749024054047,-0.9255221555502767,-0.9749122773979652,-1.8202815722279948,-1.7389318795009452,1.9710546188429081,-0.5334795946725317,-0.27296150319448537,-0.688076455136125,0.06754277818802544,-0.16375106445707227,0.6317610851158646,-1.1178372088990045,-1.282910104007589,-0.7867195058348327,-1.1863722034802044,-1.1662401362164974,-1.2535800175412828,-0.9510875085660078,-1.2217595237695325,-0.4717773165895995,-0.6615278677009169,-0.4831277780789141,undefined,1498223330904
80ec3f676e17debf,-1.0742426149627324,-0.9984031941560674,-0.7749510957559008,-0.8316631630923731,-1.7328120050129625,-1.7713339256684661,1.9889004798125145,-0.4181485352720956,-0.34351993869736436,-0.6727063072856867,0.06682073503512623,-0.12680260460384987,-0.14287405303030304,-1.0955389764709678,-1.2382420916684531,-0.7079280897274004,-1.1421073231705514,-1.146288328076724,-1.2130161578901884,-0.8486938500233279,-1.1808154351823035,-0.4635353497455325,-0.6277306773822231,-0.40920400452115774,undefined,1498223332422
80ec3f676e17debf,-0.9009908319168294,-0.7759242760441228,-0.5931181415390537,-0.6054201208392443,-1.6522441398205625,-1.8114969966833774,1.9578214352435799,-0.6467061537256331,-0.378543839907181,-0.6616768713919653,0.07883170397703172,-0.06751200542326237,-0.5824142156862745,-1.0732407553748589,-1.1899523425302485,-0.3788580195087946,-1.0123211454107586,-1.1233005329318368,-1.1694350849020743,-0.6717389567639926,-1.1191437087669074,-0.45410203122567744,-0.6116569663326534,-0.3271345018481584,undefined,1498223333938
80ec3f676e17debf,-0.9425712481160069,-0.539356997977265,-0.1496999921851058,-0.20249627909026446,-1.491519838585632,-1.8653187271096707,1.980968991518636,-0.51902788480006,-0.384306778388305,-0.6497397377614478,0.06515910880507396,0.03542434945442498,-0.24296735739750447,-1.0350152217013595,-1.1428698377646946,-0.3487319247359029,-0.9543167132986722,-1.0969426473464237,-1.1519256206358093,-0.6036236851496193,-1.0885178784843688,-0.4530622111261747,-0.5901949121226375,-0.32722259811201454,undefined,1498223335394
80ec3f676e17debf,-0.7873376034414988,-0.7230928969852056,0.1629260678741906,0.1379138329447638,-1.3314435362021089,-1.970092565640895,1.9776449188930658,-0.6432610482151765,-0.3381554485889991,-0.5526293437937639,0.0775131312229263,-0.09935615456588234,-0.2560230057932264,-0.997851510701046,-1.0740569490158982,-0.21200560227782672,-0.9151502309729997,-1.0312040904521895,-1.0835889582062213,-0.3888583709954992,-0.9951474650485052,-0.45711683046176343,-0.6183340445770814,-0.38554351468366554,undefined,1498223336948
80ec3f676e17debf,-0.5794354016766775,-0.83521287853836,0.23693481373747538,0.2101176293255805,-1.1801512203337623,-2.008389917572172,1.9611586689329692,-0.7723352766111706,-0.30149617701692066,-0.5296794072569788,0.06174810134991377,-0.027260044278015327,-0.4692652629233512,-0.9882951147366084,-1.07647144880455,-0.22822741845308928,-0.9968487525870647,-1.0135837460707608,-1.0516032915123799,-0.30530811103574296,-0.9601180224495606,-0.4610808782669933,-0.6279553654730861,-0.42692124789079633,undefined,1498223338444
80ec3f676e17debf,-0.4574661279174621,-0.850475268489516,0.08891630546310811,0.06678723323477243,-0.9346624902509285,-2.0058370711357045,1.9789755994456708,-0.6120116270386925,-0.27870174295611116,-0.47506553598984347,0.07445304138837887,0.03574122038079255,-0.7129706996434938,-0.9628114288586358,-1.0245599481428094,-0.3603188636089494,-1.057966673936056,-0.9760914875772072,-0.9540413922387403,-0.08895338074092542,-0.8697428010914515,-0.4561958984104969,-0.6465202419154706,-0.42953507436705307,undefined,1498223339881
80ec3f676e17debf,-0.6279459016196386,-0.8363868793066104,-0.15799400566648786,-0.1953947216237149,-1.0016429492694108,-2.0213171951270894,1.96388313589361,-0.7322997559724392,-0.26676719387174525,-0.5861679275624395,0.08265630082395313,-0.00007236325992088165,-0.673803754456328,-0.9245859227055324,-0.967819521526103,-0.3278753725820319,-1.0049233658231138,-0.9444169942307861,-0.9082937046298558,-0.19203578576791028,-0.8583626313686994,-0.43557381603075535,-0.6045194346677687,-0.4420780166088852,undefined,1498223341391
