UUID,iqrAccX,iqrAccY,iqrAccZ,iqrAccXYZ,meanAccX,meanAccY,meanAccZ,meanAccXYZ, covarianceAccXY, covarianceAccXZ, covarianceAccYZ,pressureDerivative, pressureIQR, iqrGyroX, iqrGyroY, iqrGyroZ, iqrGyroMagnitude, meanGyroX, meanGyroY, meanGyroZ, meanGyroMagnitude, covarianceGyroXY, covarianceGyroXZ, covarianceGyroYZ, class, timestamp 
80ec3f676e17debf,-0.6251738922759119,-1.0124916125669654,-0.7398603740534166,-0.8491466037735752,-1.6574384230366073,-1.343427067129378,1.716326442809054,-1.437148323087959,-0.2910386350683933,-0.8854516633815979,0.06299894861532095,-2.1134498920117033,2.6053399342691623,-0.9394513753762602,-1.0945801070320746,-0.828432596010214,-1.1929011425293023,-1.0930060337841787,-1.0076198471473357,-0.8953293123402615,-1.0751947449648283,-0.5032132361769565,-0.7110212054687864,-0.49900795240594964,undefined,1498222735864
80ec3f676e17debf,-1.1019629240588098,-1.0345046749965174,-0.8850081513470972,-0.9163379455220689,-1.7637371403134812,-1.4079089119653607,1.8281765704503543,-0.892790141930273,-0.27906415359560355,-0.6994328692189918,0.07758807083448778,-2.4329992335588413,5.103320660650624,-1.098724436396291,-1.1621857330026362,-1.0138241903395682,-1.19211552081173,-1.1128931645306908,-1.138915991201637,-1.0694922146258328,-1.1793083918981069,-0.4747238824293304,-0.6549439126105011,-0.5159789554577915,undefined,1498222737351
80ec3f676e17debf,-1.154631481149123,-1.0089695225782371,-0.9012774905752844,-0.9407138175686997,-1.8238435287724768,-1.4163399411478117,1.8334259108088682,-0.8831147795617906,-0.29349407274781725,-0.6850521937233383,0.07944135917793589,-1.326770718798248,3.5845135639483066,-1.0997862639260172,-1.1959885588718262,-1.14128089951682,-1.2618790795932064,-1.1134008917338323,-1.1928730514975898,-1.1602863387195823,-1.2143874397516503,-0.47695499881179637,-0.6673895781659938,-0.5157736479452589,undefined,1498222738893
80ec3f676e17debf,-1.2558105468087497,-1.0647359473997688,-0.9312641257855491,-0.9896224886751809,-1.8707432018086982,-1.4095658102450155,1.83761301102558,-0.84849159641195,-0.2932125216208321,-0.6739422089312581,0.08479207848805305,-0.9699857586182402,1.7153799019607845,-1.1231463076953119,-1.2382420879873361,-1.159820055416665,-1.298584640167738,-1.1392091473424517,-1.2264911591167353,-1.2106741376478256,-1.2504308880355646,-0.47318772975493356,-0.6660270044036848,-0.5149696441287003,undefined,1498222740371
80ec3f676e17debf,-1.250266480676358,-1.0788243073546822,-0.9382818635069268,-0.9933684749850987,-1.9168642672911813,-1.4074904568728432,1.8403637844010319,-0.8288700034634527,-0.2944989407561167,-0.6738370188342265,0.08532683709538982,-0.30681934541578765,-0.9044535427807487,-1.1295172243082645,-1.2780811228358697,-1.1644548479247165,-1.3095650026665002,-1.1526687934579123,-1.2420454284856899,-1.2216208492006144,-1.2654701617032056,-0.47226461235947154,-0.6659582732070857,-0.5166276519509798,undefined,1498222741858
80ec3f676e17debf,-1.3459015060826502,-1.0987828172908094,-0.966992731231086,-1.0259857472910947,-1.978640164170345,-1.3923573876906155,1.831438222017721,-0.8612235419240838,-0.2861322757285198,-0.6788215811110146,0.09047519595195887,-0.01822001278634291,-0.678155637254902,-1.131640869654636,-1.2744593970801519,-1.1667722441787425,-1.3146127709927817,-1.1615860304478758,-1.2515429043300363,-1.2199848472825638,-1.2740513029411136,-0.4720112337955264,-0.6667656320683203,-0.5184053984205422,undefined,1498222743407
80ec3f676e17debf,-1.1463153841071236,-1.0776502773584393,-0.9178660258119474,-0.9877311858213708,-1.8329021244186972,-1.3917913824152546,1.8201826569081858,-0.8845135718581183,-0.27838056881769074,-0.7109122769944807,0.08444027046785889,-0.07485182405473899,-0.4779690285204991,-1.1125281068650035,-1.2744593970801519,-1.1621374516706908,-1.2918331414797255,-1.1224797997133356,-1.250707245512769,-1.1993541641130692,-1.2498362648292687,-0.4674151408504761,-0.6531039452178847,-0.5187112360484786,undefined,1498222744870
80ec3f676e17debf,-0.9536593631280853,-0.856345506154707,-0.6581949901779037,-0.7384783165822993,-1.6802315235507796,-1.410998289231321,1.8534549638509314,-0.6719228745646948,-0.2911917073436818,-0.6644391976967026,0.100001570848431,-0.06519698254881663,-0.3822276069518717,-1.1082808275041882,-1.2442783024883552,-1.134328717820923,-1.214437458181229,-1.120446124246367,-1.21019153303664,-1.1581883104502575,-1.2258083018803954,-0.46246608329191097,-0.6497091476541694,-0.5033118871550408,undefined,1498222746371
80ec3f676e17debf,-1.0978048927905149,-0.3104209733419699,0.189721759547495,0.3368669730374847,-1.5275712079337844,-1.4701004071648482,1.8364690386624805,-0.8526505824432302,-0.284007264893182,-0.6259165273882094,0.1380785358816224,-0.2622161158432527,-0.3604681929590018,-1.0636843642669616,-1.07526421547525,-0.9721110789656459,-1.0580853307911293,-1.072226228539902,-1.137690153738976,-1.049560611847808,-1.156932339963636,-0.4582397814286368,-0.6405869880616599,-0.4875090217742231,undefined,1498222747870
80ec3f676e17debf,-1.058996485935064,-0.3391846497939332,0.6344161846614472,0.7432346328643801,-1.542639753665029,-1.4999239858692952,1.8257841299055775,-0.9820188423128767,-0.3167512469320427,-0.5337084467772233,0.16582682101819815,-0.19652845069062738,-0.1994485294117647,-1.0212115674211153,-1.0064513267264534,-0.9002718374879299,-1.0446377935786757,-1.0410311008196673,-1.0800822513568258,-0.9630787637797283,-1.1026747327722908,-0.4669729839498853,-0.6396493012183657,-0.49837191857857127,undefined,1498222749363
80ec3f676e17debf,-1.0104859514866933,-0.3585562616439083,0.7613802090869342,0.7450611598510484,-1.5493563124447876,-1.5142767588167634,1.8321561505068829,-0.9687970856156118,-0.3360451151905385,-0.5404046862519895,0.1458250226246038,-0.0918181751301782,-0.09065145944741532,-1.005284245130644,-1.0185237557284916,-0.8608761365003941,-1.068677842152578,-1.0304269364564216,-1.0665047931344491,-0.9271403195551993,-1.0851602661540105,-0.47318052145865636,-0.6432761179825212,-0.5093154182870473,undefined,1498222751279
80ec3f676e17debf,-1.0007838238937734,-0.3544471566570586,0.7875385252910846,0.8563082409152616,-1.545859175427702,-1.5349767079112246,1.8677768714189038,-0.7696920349752552,-0.36475351325194577,-0.5193035559806878,0.1093298972646444,-0.08524502096999906,-0.42574643493761144,-0.9978515171764333,-1.0342179104862477,-0.8608761294342138,-1.1066409498488423,-1.014724057215882,-1.0440442108131995,-0.8799346874390083,-1.0598670765318936,-0.4825717646387857,-0.6540442085908929,-0.5219961959729266,undefined,1498222752490
80ec3f676e17debf,-0.9356411643722232,-0.41021358147859044,0.6554704143733782,0.7482532365583254,-1.5506831661124245,-1.549348114174441,1.8851914477630378,-0.677189134139913,-0.39196693275604716,-0.5228543993446935,0.10263032935200532,-0.06744579568440655,-0.40398702094474154,-0.9691823551846694,-1.0402541397117342,-0.7589107790512454,-1.1349342708669194,-0.9993262292830689,-1.0069308869121978,-0.8147333445986391,-1.024331895260852,-0.49333656565655093,-0.6644395442158282,-0.4944063944486291,undefined,1498222754418
80ec3f676e17debf,-0.925939054032008,-0.4471956432722072,0.6273979386661707,0.7003458232166749,-1.5495414535711103,-1.5679517471120792,1.907181884228959,-0.5772287349225895,-0.3810778376513926,-0.5155302700839186,0.10321969953770185,-0.04971147078569004,-0.40398702094474154,-0.9606877997007325,-1.0197310001011421,-0.7287846418812713,-1.1487063741848909,-0.9967841350891593,-0.9815413616741709,-0.6420698730364829,-0.9750652917124856,-0.4949324480091999,-0.6694931165007643,-0.3809193136918954,undefined,1498222755371
80ec3f676e17debf,-0.9106929077516348,-0.3585562616439083,0.5004336601037344,0.5293227445373138,-1.5098489500560135,-1.6547322118975354,1.915507855612645,-0.6446748884134319,-0.42351002436824214,-0.5575880370028878,0.062193251767732605,-0.10436447979634385,-0.17768911541889482,-0.9426368417769707,-1.0185237557284916,-0.6036453006933239,-1.0868190927902812,-0.9871241767207196,-0.9603967980697616,-0.33909201251062077,-0.9102230748135958,-0.4814913920130528,-0.6051918928679976,-0.36208203940251293,undefined,1498222756864
80ec3f676e17debf,-0.9190090047936342,-0.5833831812923538,0.6191036710478391,0.7183116697118287,-1.483260424177824,-1.7436346148757633,1.9749099159582215,-0.4001525759762879,-0.3814531645613866,-0.5202539437477509,-0.018989988960087772,-0.12281885600359099,-0.1124108734402852,-0.832207529830369,-1.0450831172023365,-0.5271713515017211,-1.0354255461251796,-0.9268838065853786,-0.9795512848881139,-0.23779328266615354,-0.8697565537263682,-0.4908137907531271,-0.6239467275682317,-0.35814034976060727,undefined,1498222758385
80ec3f676e17debf,-0.9938537919081043,-0.7665320360741806,0.8194395741413557,0.8225235944767781,-1.5163083705288833,-1.803505379249572,1.9995538256902445,-0.3497111502461367,-0.3326706696705816,-0.4923282976950684,-0.03593629564527436,0.10904825055839423,-0.051484514260249546,-0.798229275517685,-1.0462903615749872,-0.3788580053764338,-1.0179870077367796,-0.8845034640355864,-0.9988502133858187,-0.15637990465602036,-0.8436476966094825,-0.483891836339723,-0.6588583957302862,-0.3622693337640103,undefined,1498222759857
80ec3f676e17debf,-1.011871964784909,-0.8991976010175682,1.1224948366853669,1.1185047512970299,-1.5512694538764071,-1.8113129893814608,1.9531798263688749,-0.6859273050563114,-0.3196507229131051,-0.3888758468064902,-0.01859046063927926,0.23295222070404173,0.6100016711229947,-0.7769928738570682,-1.0221454888464434,-0.28847965039595497,-0.9244675551766258,-0.8484710934047046,-0.9630529082850027,-0.17105550503847755,-0.817589700220044,-0.4547807638371418,-0.6759265671930625,-0.38191753387704896,undefined,1498222761413
80ec3f676e17debf,-0.8718844836434791,-0.9320704409123659,1.354092888338304,1.3647433800060964,-1.4547998989459836,-1.8492935633312368,2.0079297596734142,-0.3663575529941814,-0.31047082017993277,-0.32350058985297253,0.026923677538225034,0.36869794031449027,0.7623175690730838,-0.8035383872647669,-1.0209382444737927,-0.2490839564745995,-0.9395057608066231,-0.8278147615510061,-0.9662306117793401,-0.13038413674327234,-0.8037404949874708,-0.4515894931964555,-0.692682998403194,-0.382113729741821,undefined,1498222763001
80ec3f676e17debf,-0.8330760422826187,-0.88921828759352,1.3987536451452254,1.3647433800060964,-1.4057782657843623,-1.8206136398546033,1.9492798241659617,-0.7080573302164165,-0.2941515642288059,-0.4585708161630337,0.035127258054844256,0.3999285833021523,0.7710213346702318,-0.8046002212698804,-1.0450831061589858,-0.33019274057133613,-0.9969901315058699,-0.8163172324762704,-1.0117375647123408,-0.37365296353431476,-0.8680574122796028,-0.43663565695126333,-0.6528566904390334,-0.517203063235001,undefined,1498222764388
80ec3f676e17debf,-0.8580243506613217,-0.8176023993667261,0.8596341281991101,0.9341727792124768,-1.3938571420745576,-1.8111196607718074,1.9284123153502999,-0.828047064680317,-0.26889330526351696,-0.5297964401292854,0.08059556503917388,0.25577252953305146,0.8014845142602496,-0.8396402772107415,-1.0269744736992794,-0.5248539411153346,-1.0305401663015774,-0.8287153895736732,-1.0100203220714465,-0.5718353835556358,-0.9130367774289554,-0.4298725510771357,-0.6778459380110213,-0.5122432960685477,undefined,1498222765868
80ec3f676e17debf,-0.8663403959452064,-0.8164283693704832,0.7747788173344345,0.7428727475921703,-1.4224719507834593,-1.7740731108545718,1.928036256073803,-0.7792391338930044,-0.292568301816407,-0.6684331632975075,0.06930890889727204,0.2126200380538148,-0.35611631016042783,-0.8311457023006428,-0.9762702394968906,-0.5526626961636436,-1.0389027957247783,-0.8168547032949096,-0.9811722349224395,-0.6013102044971205,-0.8999295533929309,-0.4186654830892139,-0.6992843338889384,-0.5195258096856309,undefined,1498222767415
80ec3f676e17debf,-0.7707054093575,-0.7630099460854524,0.730117806390564,0.6756594649251328,-1.4055931230416188,-1.782886952993618,1.88716381083599,-1.0599910975913749,-0.28851254263996806,-0.6553193012538118,0.08446464025845399,0.08705521097833281,-0.8130640040106952,-0.8173420480203984,-0.9460891301806265,-0.6523106361602254,-1.028435488496944,-0.7975565758444636,-0.96662381206503,-0.6792621889727013,-0.8984150765138141,-0.40541766536216317,-0.6997812436377043,-0.5103075397204809,undefined,1498222768875
80ec3f676e17debf,-0.7180368695198917,-0.8111452343873907,0.895362733644647,0.9290966422111596,-1.4310913667301726,-1.8329329859994823,1.8864721720012898,-1.1343257426305713,-0.31720248597804956,-0.5986547524242092,0.0736324601438198,0.09423086643566207,-0.43445020053475936,-0.8428257144722092,-0.9714412546440546,-0.6615802211763284,-1.0434414558300478,-0.8202683725962094,-0.9816055571390025,-0.682811883596171,-0.9161889102839028,-0.43433134757334435,-0.696291640174878,-0.487942913476293,undefined,1498222770907
80ec3f676e17debf,-0.7235809399654596,-0.8352128493103677,1.1499291745125724,1.1541125747166079,-1.4184296736518114,-1.7968880090156916,1.916117976301342,-0.8976206990587667,-0.3417122175422696,-0.6476765063419917,0.06887059146643261,0.19194213726404788,-0.22555982620320855,-0.8184038431731884,-0.9980006382046009,-0.652310629094045,-1.037410972169838,-0.830218856115101,-1.0022927247306215,-0.676772105831052,-0.9251921590006906,-0.437983589689783,-0.7053369524040932,-0.5039643317376322,undefined,1498222771865
80ec3f676e17debf,-0.738827068993128,-0.8663247026667859,1.0503994879142908,1.1553919908825638,-1.3240789752720836,-1.8147765667017357,1.985494887993419,-0.44680451075422234,-0.31262878451976184,-0.6884542676227989,0.034818837371318474,0.09989650972371879,-0.042780748663101595,-0.818403882025512,-0.9497108559363444,-0.7403715948866786,-1.0159967801154546,-0.8059309618071683,-0.9641281920193414,-0.7160130012665998,-0.9077751747640711,-0.42659407744536093,-0.6960594646779812,-0.4992273371468812,undefined,1498222773363
80ec3f676e17debf,-0.7790214891467946,-0.8686727626592714,0.9948926743798778,1.008360907182362,-1.3303429671751377,-1.8281883257747695,1.9990541693172827,-0.373966040295534,-0.30485811707938887,-0.7850815255171142,0.03954203113664258,0.12284031510836665,-0.11676275623885918,-0.8109711346451395,-0.9424674044249085,-0.5132669739775666,-0.9541215397886216,-0.823413307106912,-0.9352159091080607,-0.5654777206537585,-0.875954376667776,-0.441021506266907,-0.7225335393828628,-0.47974061064512663,undefined,1498222774897
80ec3f676e17debf,-0.8386200954754817,-0.8663247026667859,0.970648263541835,0.986357415546925,-1.3915531506451668,-1.8169078208039817,2.021728358873839,-0.22242139618447604,-0.293631356905971,-0.7033897402936999,0.03504001760509017,0.1795265773333603,-0.3517644273618538,-0.8035383743139923,-0.9509181297579301,-0.5318061440097726,-0.9742474607691668,-0.8190336415852157,-0.9352480070687195,-0.5570714790737524,-0.8684458151672827,-0.4500652033895029,-0.7385763972087338,-0.5076833152001549,undefined,1498222776357
80ec3f676e17debf,-0.7998116886200308,-0.8416700727456876,0.8845164227802057,0.9253703334204868,-1.345555513135043,-1.8141360265687299,2.0065911965193095,-0.3057750138759302,-0.2992550723795727,-0.7701817774861283,-0.011116902973687955,0.07510484081909924,0.8319476938502675,-0.809909300640026,-0.9376384416587739,-0.67084977792771,-0.9900109799921462,-0.8356807279680352,-0.9383936126253373,-0.6021049090504408,-0.8863707513798238,-0.4559884805309369,-0.7246148761270762,-0.5059996049336434,undefined,1498222777909
80ec3f676e17debf,-0.7402131167967535,-0.8874573010551405,0.9770283716571094,1.032430858248808,-1.3860297310514353,-1.8206858472584075,1.9752780989183498,-0.5282364847079756,-0.3057494632247734,-0.7054921300638493,-0.008693450575667427,0.2566677926164267,0.5925941399286988,-0.86193849345031,-0.9267732423049188,-0.6615802070439677,-0.9876947093363038,-0.8673552221456479,-0.9165830150457965,-0.5796235143428469,-0.8907935955039825,-0.4370619737845796,-0.7156187206392115,-0.5093046911062599,undefined,1498222779370
80ec3f676e17debf,-0.7055627153305402,-0.8692597776573928,0.9355575418393508,0.9663975960684914,-1.3717326100274063,-1.8111872091943166,2.04972265183633,-0.0178210840114921,-0.3023345107236336,-0.8022420689982204,-0.003082338451184607,0.22023753803977442,0.07036820409982177,-0.8300839006724657,-0.931602219795521,-0.48314080854287106,-0.9694810284023967,-0.8630336617208972,-0.9097541635755406,-0.3959047778659124,-0.8513613848674483,-0.4415385104554222,-0.7116376927470108,-0.47691960587419596,undefined,1498222781188
80ec3f676e17debf,-0.7471431832878322,-0.8909793325878841,1.267323672107521,1.2634108684341583,-1.3239246904806796,-1.811459729685836,2.0337307975947456,-0.1187863345049141,-0.30089217016012043,-0.7717412694707109,0.0072792760072126405,0.2691626476328269,0.44027824197860965,-0.8353929865179985,-0.948503641012629,-0.3649536278522793,-0.9405944900886859,-0.8705219451413518,-0.9093449139807294,-0.33750259902536395,-0.8437650305811994,-0.438047236698349,-0.7083052325505778,-0.46868372105632133,undefined,1498222782377
80ec3f676e17debf,-0.8469362097701859,-0.7800334394869572,1.0740057608723317,1.0533493176146853,-1.362825196044002,-1.7564990000121772,2.0721732970994977,0.20582374588799396,-0.2864551368062792,-0.869906565102429,0.017940555237404208,0.30609469541578715,0.7840769830659537,-0.8375166480528382,-0.9267732423049188,-0.34177969357674337,-0.9432674009352789,-0.8592858883903776,-0.9172329998639686,-0.33525975762852184,-0.8389599160296062,-0.45582133466488356,-0.700899237420212,-0.4566396940370348,undefined,1498222783881
80ec3f676e17debf,-0.8635684038541847,-0.6139079611946658,0.9227973256088019,0.9121461229751384,-1.4365839295128617,-1.7778977209462918,2.009765369823691,-0.2180034075907464,-0.3151632627486546,-0.7088426760853962,-0.05280162018692086,0.36752324767376654,0.379351882798574,-0.8322075427811435,-0.9243587535596176,-0.27921002298276965,-0.9415850267098445,-0.8402855494583115,-0.8999482207236068,-0.30039858470309283,-0.8177052606315326,-0.4445175232391433,-0.6524007662222459,-0.4646879935050469,undefined,1498222785399
80ec3f676e17debf,-0.7942676871852824,-0.48535153046612034,0.7856251281988759,0.7567587805196924,-1.4114559718139261,-1.811389853463374,1.988737434092812,-0.37267799955068803,-0.34333866152527986,-0.617027216199803,-0.036733450567615955,0.2130075687745758,0.3445368204099822,-0.8545057460699375,-0.9460891522673278,-0.2815274192367954,-0.9680318682396437,-0.8836391508662803,-0.8809943457388232,-0.273802372143798,-0.82627038105586,-0.45123386168185925,-0.6400569336032708,-0.4584150107537609,undefined,1498222786862
80ec3f676e17debf,-0.621015817875855,-0.5687077771113267,0.38878164101795676,0.36806611375397996,-1.3524572126250163,-1.8898246548628816,1.9575453095462232,-0.6742419325190243,-0.3246329163354665,-0.5632264970925966,-0.019306938201276054,0.1091827016285782,-0.45185773172905525,-0.8746803331516027,-0.9617832849383825,-0.3047014100417744,-0.9839653641652208,-0.9072079959895604,-0.9018660762142665,-0.21298074974876638,-0.8350444001145989,-0.4583473932685181,-0.6322760987296027,-0.45316143556515764,undefined,1498222788367
80ec3f676e17debf,-0.6736844094715779,-0.5340739068361611,0.2777680139491307,0.26275579183882025,-1.2643910742815703,-1.8976858379502606,1.9710256925760905,-0.5868662310160603,-0.26786219805044026,-0.5505095121600105,0.021114116380347336,-0.03626275762086525,-0.6302849264705882,-0.9129058781570296,-0.93763843429654,-0.4298407088326396,-0.9941371332650749,-0.929919792714315,-0.9185730907147253,-0.3156569708554959,-0.8707057680922626,-0.4729384540243748,-0.6338433305578446,-0.45652273228667206,undefined,1498222789932
80ec3f676e17debf,-0.6889305557519512,-0.5968845847051303,0.25735166798025244,0.24531678090807738,-1.2827716162516685,-1.8769789014729326,1.9565696487948847,-0.6721280952638167,-0.2654332106114759,-0.5593115755134636,0.003177746684860117,-0.0923314934827745,-0.7086188168449198,-0.9182149769533371,-0.9364311972861232,-0.473871223526768,-1.0091698565828617,-0.9349531393495857,-0.9282666895176439,-0.35820031807084535,-0.8849264144607031,-0.4707517756138592,-0.633309911350398,-0.4719856095236439,undefined,1498222791654
